Summary
[Data Information]
Data is:,Measurement Data
Dataset Name:,RawData
Sample Name:,POV_P1_2_
Sample ID
Option
Analyst
Date/Time:,04/26/2023 01:15:11 PM
Comments
Parameter File Name:,bsa.vspm
Report File Name
[Software Information]
Software Name:,LabSolutions UV-Vis
Version:,1.11
[Instrument Information]
Instrument Name:,UV-2600i
Instrument Type:,UV-2600 Series
Model (S/N):,UV-2600i (A12595900700)

Parameter
[Measurement]
Start:,800 nm
End:,200 nm
Data Interval:,1.0
Scan Speed:,Medium speed
Spectrum Type:,Absorbance
[Accessories]
Accessories:,None
[Advanced]
Slit Width:,2.0
Detector Unit:,Direct Receiving of Light
Light Source Switch Wavelength:,323
S/R Switch:,Standard
Stair Correction:,OFF
[Repeat]
Repeat Measurement:,OFF
[Post-processing]
Spectrum Transformation:,OFF
Data Processing Table:,OFF
Print:,OFF

Wavelength (nm),Absorbance
200.0,0.975
201.0,0.960
202.0,0.959
203.0,0.976
204.0,0.992
205.0,0.995
206.0,1.006
207.0,1.027
208.0,1.018
209.0,1.036
210.0,1.058
211.0,1.032
212.0,1.070
213.0,1.071
214.0,1.075
215.0,1.125
216.0,1.108
217.0,1.123
218.0,1.133
219.0,1.163
220.0,1.171
221.0,1.210
222.0,1.282
223.0,1.428
224.0,1.758
225.0,2.159
226.0,2.565
227.0,2.916
228.0,3.239
229.0,3.499
230.0,3.741
231.0,3.937
232.0,4.107
233.0,4.214
234.0,4.343
235.0,4.438
236.0,4.517
237.0,4.663
238.0,4.650
239.0,4.714
240.0,4.736
241.0,4.772
242.0,4.829
243.0,4.860
244.0,4.838
245.0,4.862
246.0,4.969
247.0,4.924
248.0,4.990
249.0,4.978
250.0,4.990
251.0,4.950
252.0,4.889
253.0,4.903
254.0,4.923
255.0,4.953
256.0,4.911
257.0,5.019
258.0,4.918
259.0,4.969
260.0,4.903
261.0,4.886
262.0,5.009
263.0,4.998
264.0,4.916
265.0,4.831
266.0,4.868
267.0,4.832
268.0,4.873
269.0,4.920
270.0,4.907
271.0,4.893
272.0,4.942
273.0,4.902
274.0,4.906
275.0,4.836
276.0,4.877
277.0,4.800
278.0,4.791
279.0,4.772
280.0,4.795
281.0,4.794
282.0,4.843
283.0,4.724
284.0,4.738
285.0,4.712
286.0,4.741
287.0,4.693
288.0,4.635
289.0,4.622
290.0,4.609
291.0,4.567
292.0,4.585
293.0,4.588
294.0,4.563
295.0,4.510
296.0,4.456
297.0,4.497
298.0,4.455
299.0,4.377
300.0,4.388
301.0,4.328
302.0,4.305
303.0,4.261
304.0,4.249
305.0,4.234
306.0,4.307
307.0,4.265
308.0,4.211
309.0,4.173
310.0,4.121
311.0,4.090
312.0,4.038
313.0,3.987
314.0,3.943
315.0,3.899
316.0,3.859
317.0,3.798
318.0,3.756
319.0,3.719
320.0,3.666
321.0,3.621
322.0,3.578
323.0,3.533
324.0,3.497
325.0,3.457
326.0,3.418
327.0,3.373
328.0,3.342
329.0,3.306
330.0,3.274
331.0,3.237
332.0,3.205
333.0,3.170
334.0,3.137
335.0,3.104
336.0,3.069
337.0,3.039
338.0,3.008
339.0,2.980
340.0,2.947
341.0,2.916
342.0,2.885
343.0,2.856
344.0,2.828
345.0,2.797
346.0,2.769
347.0,2.741
348.0,2.712
349.0,2.684
350.0,2.653
351.0,2.623
352.0,2.591
353.0,2.564
354.0,2.530
355.0,2.498
356.0,2.464
357.0,2.430
358.0,2.396
359.0,2.360
360.0,2.326
361.0,2.288
362.0,2.251
363.0,2.213
364.0,2.173
365.0,2.133
366.0,2.094
367.0,2.053
368.0,2.013
369.0,1.972
370.0,1.930
371.0,1.892
372.0,1.850
373.0,1.805
374.0,1.766
375.0,1.727
376.0,1.690
377.0,1.654
378.0,1.617
379.0,1.579
380.0,1.542
381.0,1.506
382.0,1.471
383.0,1.437
384.0,1.405
385.0,1.374
386.0,1.343
387.0,1.313
388.0,1.284
389.0,1.257
390.0,1.230
391.0,1.205
392.0,1.181
393.0,1.158
394.0,1.137
395.0,1.116
396.0,1.095
397.0,1.076
398.0,1.056
399.0,1.038
400.0,1.020
401.0,1.002
402.0,0.985
403.0,0.969
404.0,0.952
405.0,0.937
406.0,0.921
407.0,0.907
408.0,0.892
409.0,0.878
410.0,0.863
411.0,0.849
412.0,0.835
413.0,0.821
414.0,0.808
415.0,0.795
416.0,0.782
417.0,0.770
418.0,0.757
419.0,0.744
420.0,0.732
421.0,0.720
422.0,0.708
423.0,0.696
424.0,0.685
425.0,0.672
426.0,0.661
427.0,0.649
428.0,0.637
429.0,0.626
430.0,0.615
431.0,0.605
432.0,0.594
433.0,0.584
434.0,0.574
435.0,0.565
436.0,0.556
437.0,0.547
438.0,0.539
439.0,0.531
440.0,0.524
441.0,0.517
442.0,0.511
443.0,0.505
444.0,0.499
445.0,0.493
446.0,0.488
447.0,0.484
448.0,0.479
449.0,0.475
450.0,0.471
451.0,0.467
452.0,0.463
453.0,0.460
454.0,0.456
455.0,0.453
456.0,0.450
457.0,0.447
458.0,0.444
459.0,0.441
460.0,0.438
461.0,0.435
462.0,0.431
463.0,0.428
464.0,0.425
465.0,0.422
466.0,0.418
467.0,0.415
468.0,0.411
469.0,0.408
470.0,0.404
471.0,0.400
472.0,0.396
473.0,0.392
474.0,0.387
475.0,0.383
476.0,0.379
477.0,0.374
478.0,0.370
479.0,0.365
480.0,0.360
481.0,0.355
482.0,0.351
483.0,0.346
484.0,0.341
485.0,0.336
486.0,0.331
487.0,0.327
488.0,0.322
489.0,0.317
490.0,0.312
491.0,0.308
492.0,0.303
493.0,0.298
494.0,0.294
495.0,0.290
496.0,0.285
497.0,0.281
498.0,0.277
499.0,0.273
500.0,0.269
501.0,0.265
502.0,0.261
503.0,0.258
504.0,0.254
505.0,0.250
506.0,0.247
507.0,0.244
508.0,0.240
509.0,0.237
510.0,0.234
511.0,0.231
512.0,0.228
513.0,0.225
514.0,0.222
515.0,0.219
516.0,0.216
517.0,0.214
518.0,0.211
519.0,0.208
520.0,0.205
521.0,0.203
522.0,0.200
523.0,0.197
524.0,0.195
525.0,0.192
526.0,0.190
527.0,0.187
528.0,0.185
529.0,0.182
530.0,0.180
531.0,0.177
532.0,0.175
533.0,0.173
534.0,0.170
535.0,0.168
536.0,0.166
537.0,0.163
538.0,0.161
539.0,0.159
540.0,0.157
541.0,0.155
542.0,0.153
543.0,0.151
544.0,0.149
545.0,0.147
546.0,0.145
547.0,0.143
548.0,0.141
549.0,0.139
550.0,0.137
551.0,0.135
552.0,0.134
553.0,0.132
554.0,0.130
555.0,0.129
556.0,0.127
557.0,0.126
558.0,0.124
559.0,0.123
560.0,0.121
561.0,0.120
562.0,0.118
563.0,0.117
564.0,0.116
565.0,0.114
566.0,0.113
567.0,0.111
568.0,0.110
569.0,0.109
570.0,0.108
571.0,0.106
572.0,0.105
573.0,0.104
574.0,0.103
575.0,0.101
576.0,0.100
577.0,0.099
578.0,0.098
579.0,0.097
580.0,0.096
581.0,0.095
582.0,0.094
583.0,0.093
584.0,0.092
585.0,0.091
586.0,0.090
587.0,0.089
588.0,0.088
589.0,0.087
590.0,0.086
591.0,0.085
592.0,0.084
593.0,0.083
594.0,0.083
595.0,0.082
596.0,0.081
597.0,0.080
598.0,0.079
599.0,0.078
600.0,0.077
601.0,0.077
602.0,0.076
603.0,0.075
604.0,0.074
605.0,0.074
606.0,0.073
607.0,0.072
608.0,0.071
609.0,0.070
610.0,0.070
611.0,0.069
612.0,0.068
613.0,0.068
614.0,0.067
615.0,0.066
616.0,0.066
617.0,0.065
618.0,0.064
619.0,0.064
620.0,0.063
621.0,0.062
622.0,0.062
623.0,0.061
624.0,0.060
625.0,0.060
626.0,0.059
627.0,0.059
628.0,0.058
629.0,0.057
630.0,0.057
631.0,0.056
632.0,0.056
633.0,0.055
634.0,0.055
635.0,0.054
636.0,0.053
637.0,0.053
638.0,0.052
639.0,0.052
640.0,0.051
641.0,0.051
642.0,0.050
643.0,0.050
644.0,0.049
645.0,0.049
646.0,0.048
647.0,0.048
648.0,0.047
649.0,0.047
650.0,0.046
651.0,0.046
652.0,0.046
653.0,0.045
654.0,0.045
655.0,0.044
656.0,0.044
657.0,0.043
658.0,0.043
659.0,0.042
660.0,0.042
661.0,0.042
662.0,0.041
663.0,0.041
664.0,0.040
665.0,0.040
666.0,0.040
667.0,0.039
668.0,0.039
669.0,0.038
670.0,0.038
671.0,0.038
672.0,0.037
673.0,0.037
674.0,0.037
675.0,0.036
676.0,0.036
677.0,0.035
678.0,0.035
679.0,0.035
680.0,0.034
681.0,0.034
682.0,0.034
683.0,0.033
684.0,0.033
685.0,0.033
686.0,0.032
687.0,0.032
688.0,0.032
689.0,0.032
690.0,0.031
691.0,0.031
692.0,0.031
693.0,0.030
694.0,0.030
695.0,0.030
696.0,0.029
697.0,0.029
698.0,0.029
699.0,0.029
700.0,0.028
701.0,0.028
702.0,0.028
703.0,0.027
704.0,0.027
705.0,0.027
706.0,0.027
707.0,0.026
708.0,0.026
709.0,0.026
710.0,0.026
711.0,0.025
712.0,0.025
713.0,0.025
714.0,0.025
715.0,0.025
716.0,0.024
717.0,0.024
718.0,0.024
719.0,0.024
720.0,0.023
721.0,0.023
722.0,0.023
723.0,0.022
724.0,0.022
725.0,0.022
726.0,0.022
727.0,0.022
728.0,0.021
729.0,0.021
730.0,0.021
731.0,0.021
732.0,0.021
733.0,0.020
734.0,0.020
735.0,0.020
736.0,0.020
737.0,0.020
738.0,0.020
739.0,0.019
740.0,0.019
741.0,0.019
742.0,0.019
743.0,0.019
744.0,0.019
745.0,0.018
746.0,0.018
747.0,0.018
748.0,0.018
749.0,0.018
750.0,0.017
751.0,0.017
752.0,0.017
753.0,0.017
754.0,0.017
755.0,0.017
756.0,0.017
757.0,0.016
758.0,0.016
759.0,0.016
760.0,0.016
761.0,0.016
762.0,0.016
763.0,0.016
764.0,0.015
765.0,0.015
766.0,0.015
767.0,0.015
768.0,0.015
769.0,0.015
770.0,0.015
771.0,0.015
772.0,0.014
773.0,0.014
774.0,0.014
775.0,0.014
776.0,0.014
777.0,0.014
778.0,0.014
779.0,0.014
780.0,0.014
781.0,0.014
782.0,0.013
783.0,0.013
784.0,0.013
785.0,0.013
786.0,0.013
787.0,0.013
788.0,0.013
789.0,0.013
790.0,0.013
791.0,0.013
792.0,0.013
793.0,0.012
794.0,0.012
795.0,0.012
796.0,0.012
797.0,0.012
798.0,0.012
799.0,0.012
800.0,0.012
